#! FIELDS arg f0(s) f1(s) f2(s) f3(s) f4(s)
#! SET bf_keywords {BF_CUSTOM MINIMUM=0.00001 MAXIMUM=4.0 FUNC1=x^2 FUNC2=x^4 FUNC3=x^6 FUNC4=x^8 TRANSFORM=sqrt(t) CHECK_NAN_INF}
#! SET min 0.00001
#! SET max 4.0
#! SET nbins  401
#! SET periodic false
     -1.00000      1.00000      0.00001      0.00000      0.00000      0.00000
     -0.98500      1.00000      0.00001      0.00000      0.00000      0.00000
     -0.97000      1.00000      0.00001      0.00000      0.00000      0.00000
     -0.95500      1.00000      0.00001      0.00000      0.00000      0.00000
     -0.94000      1.00000      0.00001      0.00000      0.00000      0.00000
     -0.92500      1.00000      0.00001      0.00000      0.00000      0.00000
     -0.91000      1.00000      0.00001      0.00000      0.00000      0.00000
     -0.89500      1.00000      0.00001      0.00000      0.00000      0.00000
     -0.88000      1.00000      0.00001      0.00000      0.00000      0.00000
     -0.86500      1.00000      0.00001      0.00000      0.00000      0.00000
     -0.85000      1.00000      0.00001      0.00000      0.00000      0.00000
     -0.83500      1.00000      0.00001      0.00000      0.00000      0.00000
     -0.82000      1.00000      0.00001      0.00000      0.00000      0.00000
     -0.80500      1.00000      0.00001      0.00000      0.00000      0.00000
     -0.79000      1.00000      0.00001      0.00000      0.00000      0.00000
     -0.77500      1.00000      0.00001      0.00000      0.00000      0.00000
     -0.76000      1.00000      0.00001      0.00000      0.00000      0.00000
     -0.74500      1.00000      0.00001      0.00000      0.00000      0.00000
     -0.73000      1.00000      0.00001      0.00000      0.00000      0.00000
     -0.71500      1.00000      0.00001      0.00000      0.00000      0.00000
     -0.70000      1.00000      0.00001      0.00000      0.00000      0.00000
     -0.68500      1.00000      0.00001      0.00000      0.00000      0.00000
     -0.67000      1.00000      0.00001      0.00000      0.00000      0.00000
     -0.65500      1.00000      0.00001      0.00000      0.00000      0.00000
     -0.64000      1.00000      0.00001      0.00000      0.00000      0.00000
     -0.62500      1.00000      0.00001      0.00000      0.00000      0.00000
     -0.61000      1.00000      0.00001      0.00000      0.00000      0.00000
     -0.59500      1.00000      0.00001      0.00000      0.00000      0.00000
     -0.58000      1.00000      0.00001      0.00000      0.00000      0.00000
     -0.56500      1.00000      0.00001      0.00000      0.00000      0.00000
     -0.55000      1.00000      0.00001      0.00000      0.00000      0.00000
     -0.53500      1.00000      0.00001      0.00000      0.00000      0.00000
     -0.52000      1.00000      0.00001      0.00000      0.00000      0.00000
     -0.50500      1.00000      0.00001      0.00000      0.00000      0.00000
     -0.49000      1.00000      0.00001      0.00000      0.00000      0.00000
     -0.47500      1.00000      0.00001      0.00000      0.00000      0.00000
     -0.46000      1.00000      0.00001      0.00000      0.00000      0.00000
     -0.44500      1.00000      0.00001      0.00000      0.00000      0.00000
     -0.43000      1.00000      0.00001      0.00000      0.00000      0.00000
     -0.41500      1.00000      0.00001      0.00000      0.00000      0.00000
     -0.40000      1.00000      0.00001      0.00000      0.00000      0.00000
     -0.38500      1.00000      0.00001      0.00000      0.00000      0.00000
     -0.37000      1.00000      0.00001      0.00000      0.00000      0.00000
     -0.35500      1.00000      0.00001      0.00000      0.00000      0.00000
     -0.34000      1.00000      0.00001      0.00000      0.00000      0.00000
     -0.32500      1.00000      0.00001      0.00000      0.00000      0.00000
     -0.31000      1.00000      0.00001      0.00000      0.00000      0.00000
     -0.29500      1.00000      0.00001      0.00000      0.00000      0.00000
     -0.28000      1.00000      0.00001      0.00000      0.00000      0.00000
     -0.26500      1.00000      0.00001      0.00000      0.00000      0.00000
     -0.25000      1.00000      0.00001      0.00000      0.00000      0.00000
     -0.23500      1.00000      0.00001      0.00000      0.00000      0.00000
     -0.22000      1.00000      0.00001      0.00000      0.00000      0.00000
     -0.20500      1.00000      0.00001      0.00000      0.00000      0.00000
     -0.19000      1.00000      0.00001      0.00000      0.00000      0.00000
     -0.17500      1.00000      0.00001      0.00000      0.00000      0.00000
     -0.16000      1.00000      0.00001      0.00000      0.00000      0.00000
     -0.14500      1.00000      0.00001      0.00000      0.00000      0.00000
     -0.13000      1.00000      0.00001      0.00000      0.00000      0.00000
     -0.11500      1.00000      0.00001      0.00000      0.00000      0.00000
     -0.10000      1.00000      0.00001      0.00000      0.00000      0.00000
     -0.08500      1.00000      0.00001      0.00000      0.00000      0.00000
     -0.07000      1.00000      0.00001      0.00000      0.00000      0.00000
     -0.05500      1.00000      0.00001      0.00000      0.00000      0.00000
     -0.04000      1.00000      0.00001      0.00000      0.00000      0.00000
     -0.02500      1.00000      0.00001      0.00000      0.00000      0.00000
     -0.01000      1.00000      0.00001      0.00000      0.00000      0.00000
      0.00500      1.00000      0.00500      0.00002      0.00000      0.00000
      0.02000      1.00000      0.02000      0.00040      0.00001      0.00000
      0.03500      1.00000      0.03500      0.00122      0.00004      0.00000
      0.05000      1.00000      0.05000      0.00250      0.00012      0.00001
      0.06500      1.00000      0.06500      0.00422      0.00027      0.00002
      0.08000      1.00000      0.08000      0.00640      0.00051      0.00004
      0.09500      1.00000      0.09500      0.00902      0.00086      0.00008
      0.11000      1.00000      0.11000      0.01210      0.00133      0.00015
      0.12500      1.00000      0.12500      0.01562      0.00195      0.00024
      0.14000      1.00000      0.14000      0.01960      0.00274      0.00038
      0.15500      1.00000      0.15500      0.02402      0.00372      0.00058
      0.17000      1.00000      0.17000      0.02890      0.00491      0.00084
      0.18500      1.00000      0.18500      0.03422      0.00633      0.00117
      0.20000      1.00000      0.20000      0.04000      0.00800      0.00160
      0.21500      1.00000      0.21500      0.04622      0.00994      0.00214
      0.23000      1.00000      0.23000      0.05290      0.01217      0.00280
      0.24500      1.00000      0.24500      0.06002      0.01471      0.00360
      0.26000      1.00000      0.26000      0.06760      0.01758      0.00457
      0.27500      1.00000      0.27500      0.07562      0.02080      0.00572
      0.29000      1.00000      0.29000      0.08410      0.02439      0.00707
      0.30500      1.00000      0.30500      0.09302      0.02837      0.00865
      0.32000      1.00000      0.32000      0.10240      0.03277      0.01049
      0.33500      1.00000      0.33500      0.11222      0.03760      0.01259
      0.35000      1.00000      0.35000      0.12250      0.04287      0.01501
      0.36500      1.00000      0.36500      0.13322      0.04863      0.01775
      0.38000      1.00000      0.38000      0.14440      0.05487      0.02085
      0.39500      1.00000      0.39500      0.15602      0.06163      0.02434
      0.41000      1.00000      0.41000      0.16810      0.06892      0.02826
      0.42500      1.00000      0.42500      0.18062      0.07677      0.03263
      0.44000      1.00000      0.44000      0.19360      0.08518      0.03748
      0.45500      1.00000      0.45500      0.20702      0.09420      0.04286
      0.47000      1.00000      0.47000      0.22090      0.10382      0.04880
      0.48500      1.00000      0.48500      0.23522      0.11408      0.05533
      0.50000      1.00000      0.50000      0.25000      0.12500      0.06250
      0.51500      1.00000      0.51500      0.26522      0.13659      0.07034
      0.53000      1.00000      0.53000      0.28090      0.14888      0.07890
      0.54500      1.00000      0.54500      0.29702      0.16188      0.08822
      0.56000      1.00000      0.56000      0.31360      0.17562      0.09834
      0.57500      1.00000      0.57500      0.33062      0.19011      0.10931
      0.59000      1.00000      0.59000      0.34810      0.20538      0.12117
      0.60500      1.00000      0.60500      0.36602      0.22145      0.13397
      0.62000      1.00000      0.62000      0.38440      0.23833      0.14776
      0.63500      1.00000      0.63500      0.40323      0.25605      0.16259
      0.65000      1.00000      0.65000      0.42250      0.27462      0.17851
      0.66500      1.00000      0.66500      0.44222      0.29408      0.19556
      0.68000      1.00000      0.68000      0.46240      0.31443      0.21381
      0.69500      1.00000      0.69500      0.48302      0.33570      0.23331
      0.71000      1.00000      0.71000      0.50410      0.35791      0.25412
      0.72500      1.00000      0.72500      0.52562      0.38108      0.27628
      0.74000      1.00000      0.74000      0.54760      0.40522      0.29987
      0.75500      1.00000      0.75500      0.57002      0.43037      0.32493
      0.77000      1.00000      0.77000      0.59290      0.45653      0.35153
      0.78500      1.00000      0.78500      0.61622      0.48374      0.37973
      0.80000      1.00000      0.80000      0.64000      0.51200      0.40960
      0.81500      1.00000      0.81500      0.66423      0.54134      0.44119
      0.83000      1.00000      0.83000      0.68890      0.57179      0.47458
      0.84500      1.00000      0.84500      0.71402      0.60335      0.50983
      0.86000      1.00000      0.86000      0.73960      0.63606      0.54701
      0.87500      1.00000      0.87500      0.76562      0.66992      0.58618
      0.89000      1.00000      0.89000      0.79210      0.70497      0.62742
      0.90500      1.00000      0.90500      0.81902      0.74122      0.67080
      0.92000      1.00000      0.92000      0.84640      0.77869      0.71639
      0.93500      1.00000      0.93500      0.87422      0.81740      0.76427
      0.95000      1.00000      0.95000      0.90250      0.85737      0.81451
      0.96500      1.00000      0.96500      0.93122      0.89863      0.86718
      0.98000      1.00000      0.98000      0.96040      0.94119      0.92237
      0.99500      1.00000      0.99500      0.99002      0.98507      0.98015
      1.01000      1.00000      1.01000      1.02010      1.03030      1.04060
      1.02500      1.00000      1.02500      1.05062      1.07689      1.10381
      1.04000      1.00000      1.04000      1.08160      1.12486      1.16986
      1.05500      1.00000      1.05500      1.11303      1.17424      1.23882
      1.07000      1.00000      1.07000      1.14490      1.22504      1.31080
      1.08500      1.00000      1.08500      1.17722      1.27729      1.38586
      1.10000      1.00000      1.10000      1.21000      1.33100      1.46410
      1.11500      1.00000      1.11500      1.24322      1.38620      1.54561
      1.13000      1.00000      1.13000      1.27690      1.44290      1.63047
      1.14500      1.00000      1.14500      1.31103      1.50112      1.71879
      1.16000      1.00000      1.16000      1.34560      1.56090      1.81064
      1.17500      1.00000      1.17500      1.38063      1.62223      1.90613
      1.19000      1.00000      1.19000      1.41610      1.68516      2.00534
      1.20500      1.00000      1.20500      1.45203      1.74969      2.10838
      1.22000      1.00000      1.22000      1.48840      1.81585      2.21533
      1.23500      1.00000      1.23500      1.52522      1.88365      2.32631
      1.25000      1.00000      1.25000      1.56250      1.95313      2.44141
      1.26500      1.00000      1.26500      1.60022      2.02428      2.56072
      1.28000      1.00000      1.28000      1.63840      2.09715      2.68435
      1.29500      1.00000      1.29500      1.67702      2.17175      2.81241
      1.31000      1.00000      1.31000      1.71610      2.24809      2.94500
      1.32500      1.00000      1.32500      1.75562      2.32620      3.08222
      1.34000      1.00000      1.34000      1.79560      2.40610      3.22418
      1.35500      1.00000      1.35500      1.83603      2.48781      3.37099
      1.37000      1.00000      1.37000      1.87690      2.57135      3.52275
      1.38500      1.00000      1.38500      1.91823      2.65674      3.67959
      1.40000      1.00000      1.40000      1.96000      2.74400      3.84160
      1.41500      1.00000      1.41500      2.00222      2.83315      4.00890
      1.43000      1.00000      1.43000      2.04490      2.92421      4.18162
      1.44500      1.00000      1.44500      2.08802      3.01720      4.35985
      1.46000      1.00000      1.46000      2.13160      3.11214      4.54372
      1.47500      1.00000      1.47500      2.17562      3.20905      4.73334
      1.49000      1.00000      1.49000      2.22010      3.30795      4.92884
      1.50500      1.00000      1.50500      2.26502      3.40886      5.13034
      1.52000      1.00000      1.52000      2.31040      3.51181      5.33795
      1.53500      1.00000      1.53500      2.35622      3.61681      5.55180
      1.55000      1.00000      1.55000      2.40250      3.72387      5.77201
      1.56500      1.00000      1.56500      2.44923      3.83304      5.99870
      1.58000      1.00000      1.58000      2.49640      3.94431      6.23201
      1.59500      1.00000      1.59500      2.54402      4.05772      6.47206
      1.61000      1.00000      1.61000      2.59210      4.17328      6.71898
      1.62500      1.00000      1.62500      2.64062      4.29102      6.97290
      1.64000      1.00000      1.64000      2.68960      4.41094      7.23395
      1.65500      1.00000      1.65500      2.73903      4.53309      7.50226
      1.67000      1.00000      1.67000      2.78890      4.65746      7.77796
      1.68500      1.00000      1.68500      2.83923      4.78409      8.06120
      1.70000      1.00000      1.70000      2.89000      4.91300      8.35210
      1.71500      1.00000      1.71500      2.94122      5.04420      8.65080
      1.73000      1.00000      1.73000      2.99290      5.17772      8.95745
      1.74500      1.00000      1.74500      3.04502      5.31357      9.27218
      1.76000      1.00000      1.76000      3.09760      5.45178      9.59513
      1.77500      1.00000      1.77500      3.15062      5.59236      9.92644
      1.79000      1.00000      1.79000      3.20410      5.73534     10.26626
      1.80500      1.00000      1.80500      3.25802      5.88074     10.61473
      1.82000      1.00000      1.82000      3.31240      6.02857     10.97199
      1.83500      1.00000      1.83500      3.36723      6.17886     11.33820
      1.85000      1.00000      1.85000      3.42250      6.33162     11.71351
      1.86500      1.00000      1.86500      3.47823      6.48689     12.09805
      1.88000      1.00000      1.88000      3.53440      6.64467     12.49198
      1.89500      1.00000      1.89500      3.59103      6.80499     12.89546
      1.91000      1.00000      1.91000      3.64810      6.96787     13.30863
      1.92500      1.00000      1.92500      3.70562      7.13333     13.73166
      1.94000      1.00000      1.94000      3.76360      7.30138     14.16468
      1.95500      1.00000      1.95500      3.82203      7.47206     14.60788
      1.97000      1.00000      1.97000      3.88090      7.64537     15.06138
      1.98500      1.00000      1.98500      3.94022      7.82135     15.52537
      2.00000      1.00000      2.00000      4.00000      8.00000     16.00000
      2.01500      1.00000      2.01500      4.06022      8.18135     16.48543
      2.03000      1.00000      2.03000      4.12090      8.36543     16.98182
      2.04500      1.00000      2.04500      4.18203      8.55224     17.48933
      2.06000      1.00000      2.06000      4.24360      8.74182     18.00814
      2.07500      1.00000      2.07500      4.30562      8.93417     18.53841
      2.09000      1.00000      2.09000      4.36810      9.12933     19.08030
      2.10500      1.00000      2.10500      4.43102      9.32731     19.63398
      2.12000      1.00000      2.12000      4.49440      9.52813     20.19963
      2.13500      1.00000      2.13500      4.55822      9.73181     20.77742
      2.15000      1.00000      2.15000      4.62250      9.93838     21.36751
      2.16500      1.00000      2.16500      4.68722     10.14784     21.97008
      2.18000      1.00000      2.18000      4.75240     10.36023     22.58531
      2.19500      1.00000      2.19500      4.81802     10.57556     23.21336
      2.21000      1.00000      2.21000      4.88410     10.79386     23.85443
      2.22500      1.00000      2.22500      4.95062     11.01514     24.50869
      2.24000      1.00000      2.24000      5.01760     11.23942     25.17631
      2.25500      1.00000      2.25500      5.08502     11.46673     25.85748
      2.27000      1.00000      2.27000      5.15290     11.69708     26.55238
      2.28500      1.00000      2.28500      5.22122     11.93050     27.26119
      2.30000      1.00000      2.30000      5.29000     12.16700     27.98410
      2.31500      1.00000      2.31500      5.35923     12.40661     28.72129
      2.33000      1.00000      2.33000      5.42890     12.64934     29.47296
      2.34500      1.00000      2.34500      5.49902     12.89521     30.23928
      2.36000      1.00000      2.36000      5.56960     13.14426     31.02044
      2.37500      1.00000      2.37500      5.64062     13.39648     31.81665
      2.39000      1.00000      2.39000      5.71210     13.65192     32.62809
      2.40500      1.00000      2.40500      5.78403     13.91058     33.45495
      2.42000      1.00000      2.42000      5.85640     14.17249     34.29742
      2.43500      1.00000      2.43500      5.92923     14.43766     35.15571
      2.45000      1.00000      2.45000      6.00250     14.70613     36.03001
      2.46500      1.00000      2.46500      6.07622     14.97789     36.92051
      2.48000      1.00000      2.48000      6.15040     15.25299     37.82742
      2.49500      1.00000      2.49500      6.22502     15.53144     38.75094
      2.51000      1.00000      2.51000      6.30010     15.81325     39.69126
      2.52500      1.00000      2.52500      6.37562     16.09845     40.64859
      2.54000      1.00000      2.54000      6.45160     16.38706     41.62314
      2.55500      1.00000      2.55500      6.52802     16.67910     42.61511
      2.57000      1.00000      2.57000      6.60490     16.97459     43.62470
      2.58500      1.00000      2.58500      6.68222     17.27355     44.65213
      2.60000      1.00000      2.60000      6.76000     17.57600     45.69760
      2.61500      1.00000      2.61500      6.83822     17.88196     46.76132
      2.63000      1.00000      2.63000      6.91690     18.19145     47.84351
      2.64500      1.00000      2.64500      6.99602     18.50449     48.94437
      2.66000      1.00000      2.66000      7.07560     18.82110     50.06412
      2.67500      1.00000      2.67500      7.15562     19.14130     51.20297
      2.69000      1.00000      2.69000      7.23610     19.46511     52.36114
      2.70500      1.00000      2.70500      7.31702     19.79255     53.53885
      2.72000      1.00000      2.72000      7.39840     20.12365     54.73632
      2.73500      1.00000      2.73500      7.48023     20.45842     55.95377
      2.75000      1.00000      2.75000      7.56250     20.79688     57.19141
      2.76500      1.00000      2.76500      7.64522     21.13905     58.44947
      2.78000      1.00000      2.78000      7.72840     21.48495     59.72817
      2.79500      1.00000      2.79500      7.81202     21.83461     61.02773
      2.81000      1.00000      2.81000      7.89610     22.18804     62.34840
      2.82500      1.00000      2.82500      7.98062     22.54527     63.69038
      2.84000      1.00000      2.84000      8.06560     22.90630     65.05390
      2.85500      1.00000      2.85500      8.15103     23.27118     66.43921
      2.87000      1.00000      2.87000      8.23690     23.63990     67.84652
      2.88500      1.00000      2.88500      8.32322     24.01250     69.27607
      2.90000      1.00000      2.90000      8.41000     24.38900     70.72810
      2.91500      1.00000      2.91500      8.49723     24.76941     72.20283
      2.93000      1.00000      2.93000      8.58490     25.15376     73.70051
      2.94500      1.00000      2.94500      8.67302     25.54206     75.22136
      2.96000      1.00000      2.96000      8.76160     25.93434     76.76563
      2.97500      1.00000      2.97500      8.85062     26.33061     78.33356
      2.99000      1.00000      2.99000      8.94010     26.73090     79.92539
      3.00500      1.00000      3.00500      9.03003     27.13523     81.54135
      3.02000      1.00000      3.02000      9.12040     27.54361     83.18170
      3.03500      1.00000      3.03500      9.21122     27.95607     84.84667
      3.05000      1.00000      3.05000      9.30250     28.37262     86.53651
      3.06500      1.00000      3.06500      9.39423     28.79330     88.25146
      3.08000      1.00000      3.08000      9.48640     29.21811     89.99178
      3.09500      1.00000      3.09500      9.57902     29.64708     91.75772
      3.11000      1.00000      3.11000      9.67210     30.08023     93.54952
      3.12500      1.00000      3.12500      9.76563     30.51758     95.36743
      3.14000      1.00000      3.14000      9.85960     30.95914     97.21171
      3.15500      1.00000      3.15500      9.95402     31.40495     99.08261
      3.17000      1.00000      3.17000     10.04890     31.85501    100.98039
      3.18500      1.00000      3.18500     10.14423     32.30936    102.90530
      3.20000      1.00000      3.20000     10.24000     32.76800    104.85760
      3.21500      1.00000      3.21500     10.33622     33.23096    106.83755
      3.23000      1.00000      3.23000     10.43290     33.69827    108.84540
      3.24500      1.00000      3.24500     10.53002     34.16993    110.88143
      3.26000      1.00000      3.26000     10.62760     34.64598    112.94588
      3.27500      1.00000      3.27500     10.72562     35.12642    115.03903
      3.29000      1.00000      3.29000     10.82410     35.61129    117.16114
      3.30500      1.00000      3.30500     10.92302     36.10060    119.31248
      3.32000      1.00000      3.32000     11.02240     36.59437    121.49330
      3.33500      1.00000      3.33500     11.12223     37.09262    123.70389
      3.35000      1.00000      3.35000     11.22250     37.59537    125.94451
      3.36500      1.00000      3.36500     11.32323     38.10265    128.21542
      3.38000      1.00000      3.38000     11.42440     38.61447    130.51692
      3.39500      1.00000      3.39500     11.52602     39.13085    132.84925
      3.41000      1.00000      3.41000     11.62810     39.65182    135.21271
      3.42500      1.00000      3.42500     11.73062     40.17739    137.60756
      3.44000      1.00000      3.44000     11.83360     40.70758    140.03409
      3.45500      1.00000      3.45500     11.93702     41.24242    142.49257
      3.47000      1.00000      3.47000     12.04090     41.78192    144.98327
      3.48500      1.00000      3.48500     12.14522     42.32611    147.50649
      3.50000      1.00000      3.50000     12.25000     42.87500    150.06250
      3.51500      1.00000      3.51500     12.35523     43.42862    152.65158
      3.53000      1.00000      3.53000     12.46090     43.98698    155.27403
      3.54500      1.00000      3.54500     12.56702     44.55010    157.93012
      3.56000      1.00000      3.56000     12.67360     45.11802    160.62014
      3.57500      1.00000      3.57500     12.78062     45.69073    163.34438
      3.59000      1.00000      3.59000     12.88810     46.26828    166.10312
      3.60500      1.00000      3.60500     12.99603     46.85067    168.89667
      3.62000      1.00000      3.62000     13.10440     47.43793    171.72530
      3.63500      1.00000      3.63500     13.21322     48.03007    174.58931
      3.65000      1.00000      3.65000     13.32250     48.62713    177.48901
      3.66500      1.00000      3.66500     13.43223     49.22910    180.42467
      3.68000      1.00000      3.68000     13.54240     49.83603    183.39660
      3.69500      1.00000      3.69500     13.65302     50.44793    186.40509
      3.71000      1.00000      3.71000     13.76410     51.06481    189.45045
      3.72500      1.00000      3.72500     13.87562     51.68670    192.53297
      3.74000      1.00000      3.74000     13.98760     52.31362    195.65295
      3.75500      1.00000      3.75500     14.10002     52.94559    198.81071
      3.77000      1.00000      3.77000     14.21290     53.58263    202.00653
      3.78500      1.00000      3.78500     14.32622     54.22476    205.24072
      3.80000      1.00000      3.80000     14.44000     54.87200    208.51360
      3.81500      1.00000      3.81500     14.55422     55.52437    211.82547
      3.83000      1.00000      3.83000     14.66890     56.18189    215.17663
      3.84500      1.00000      3.84500     14.78402     56.84458    218.56740
      3.86000      1.00000      3.86000     14.89960     57.51246    221.99808
      3.87500      1.00000      3.87500     15.01562     58.18555    225.46899
      3.89000      1.00000      3.89000     15.13210     58.86387    228.98045
      3.90500      1.00000      3.90500     15.24902     59.54744    232.53276
      3.92000      1.00000      3.92000     15.36640     60.23629    236.12625
      3.93500      1.00000      3.93500     15.48422     60.93043    239.76122
      3.95000      1.00000      3.95000     15.60250     61.62987    243.43801
      3.96500      1.00000      3.96500     15.72122     62.33466    247.15692
      3.98000      1.00000      3.98000     15.84040     63.04479    250.91827
      3.99500      1.00000      3.99500     15.96003     63.76030    254.72240
      4.01000      1.00000      4.00000     16.00000     64.00000    256.00000
      4.02500      1.00000      4.00000     16.00000     64.00000    256.00000
      4.04000      1.00000      4.00000     16.00000     64.00000    256.00000
      4.05500      1.00000      4.00000     16.00000     64.00000    256.00000
      4.07000      1.00000      4.00000     16.00000     64.00000    256.00000
      4.08500      1.00000      4.00000     16.00000     64.00000    256.00000
      4.10000      1.00000      4.00000     16.00000     64.00000    256.00000
      4.11500      1.00000      4.00000     16.00000     64.00000    256.00000
      4.13000      1.00000      4.00000     16.00000     64.00000    256.00000
      4.14500      1.00000      4.00000     16.00000     64.00000    256.00000
      4.16000      1.00000      4.00000     16.00000     64.00000    256.00000
      4.17500      1.00000      4.00000     16.00000     64.00000    256.00000
      4.19000      1.00000      4.00000     16.00000     64.00000    256.00000
      4.20500      1.00000      4.00000     16.00000     64.00000    256.00000
      4.22000      1.00000      4.00000     16.00000     64.00000    256.00000
      4.23500      1.00000      4.00000     16.00000     64.00000    256.00000
      4.25000      1.00000      4.00000     16.00000     64.00000    256.00000
      4.26500      1.00000      4.00000     16.00000     64.00000    256.00000
      4.28000      1.00000      4.00000     16.00000     64.00000    256.00000
      4.29500      1.00000      4.00000     16.00000     64.00000    256.00000
      4.31000      1.00000      4.00000     16.00000     64.00000    256.00000
      4.32500      1.00000      4.00000     16.00000     64.00000    256.00000
      4.34000      1.00000      4.00000     16.00000     64.00000    256.00000
      4.35500      1.00000      4.00000     16.00000     64.00000    256.00000
      4.37000      1.00000      4.00000     16.00000     64.00000    256.00000
      4.38500      1.00000      4.00000     16.00000     64.00000    256.00000
      4.40000      1.00000      4.00000     16.00000     64.00000    256.00000
      4.41500      1.00000      4.00000     16.00000     64.00000    256.00000
      4.43000      1.00000      4.00000     16.00000     64.00000    256.00000
      4.44500      1.00000      4.00000     16.00000     64.00000    256.00000
      4.46000      1.00000      4.00000     16.00000     64.00000    256.00000
      4.47500      1.00000      4.00000     16.00000     64.00000    256.00000
      4.49000      1.00000      4.00000     16.00000     64.00000    256.00000
      4.50500      1.00000      4.00000     16.00000     64.00000    256.00000
      4.52000      1.00000      4.00000     16.00000     64.00000    256.00000
      4.53500      1.00000      4.00000     16.00000     64.00000    256.00000
      4.55000      1.00000      4.00000     16.00000     64.00000    256.00000
      4.56500      1.00000      4.00000     16.00000     64.00000    256.00000
      4.58000      1.00000      4.00000     16.00000     64.00000    256.00000
      4.59500      1.00000      4.00000     16.00000     64.00000    256.00000
      4.61000      1.00000      4.00000     16.00000     64.00000    256.00000
      4.62500      1.00000      4.00000     16.00000     64.00000    256.00000
      4.64000      1.00000      4.00000     16.00000     64.00000    256.00000
      4.65500      1.00000      4.00000     16.00000     64.00000    256.00000
      4.67000      1.00000      4.00000     16.00000     64.00000    256.00000
      4.68500      1.00000      4.00000     16.00000     64.00000    256.00000
      4.70000      1.00000      4.00000     16.00000     64.00000    256.00000
      4.71500      1.00000      4.00000     16.00000     64.00000    256.00000
      4.73000      1.00000      4.00000     16.00000     64.00000    256.00000
      4.74500      1.00000      4.00000     16.00000     64.00000    256.00000
      4.76000      1.00000      4.00000     16.00000     64.00000    256.00000
      4.77500      1.00000      4.00000     16.00000     64.00000    256.00000
      4.79000      1.00000      4.00000     16.00000     64.00000    256.00000
      4.80500      1.00000      4.00000     16.00000     64.00000    256.00000
      4.82000      1.00000      4.00000     16.00000     64.00000    256.00000
      4.83500      1.00000      4.00000     16.00000     64.00000    256.00000
      4.85000      1.00000      4.00000     16.00000     64.00000    256.00000
      4.86500      1.00000      4.00000     16.00000     64.00000    256.00000
      4.88000      1.00000      4.00000     16.00000     64.00000    256.00000
      4.89500      1.00000      4.00000     16.00000     64.00000    256.00000
      4.91000      1.00000      4.00000     16.00000     64.00000    256.00000
      4.92500      1.00000      4.00000     16.00000     64.00000    256.00000
      4.94000      1.00000      4.00000     16.00000     64.00000    256.00000
      4.95500      1.00000      4.00000     16.00000     64.00000    256.00000
      4.97000      1.00000      4.00000     16.00000     64.00000    256.00000
      4.98500      1.00000      4.00000     16.00000     64.00000    256.00000
      5.00000      1.00000      4.00000     16.00000     64.00000    256.00000
